{
	"resourceType": "Bundle",
	"id": "4350490e-98f0-4c23-9e7d-4cd2c7016342",
	"meta": {
		"profile": [
			"http://nphies.sa/fhir/ksa/nphies-fs/StructureDefinition/bundle|1.0.0"
		]
	},
	"type": "message",
	"timestamp": "2021-07-15T14:56:49.034+03:00",
	"entry": [
		{
			"fullUrl": "urn:uuid:c19c71dc-cfad-4401-b5b0-c0f20e8f6342",
			"resource": {
				"resourceType": "MessageHeader",
				"id": "c19c71dc-cfad-4401-b5b0-c0f20e8f6342",
				"meta": {
					"profile": [
						"http://nphies.sa/fhir/ksa/nphies-fs/StructureDefinition/message-header|1.0.0"
					]
				},
				"eventCoding": {
					"system": "http://nphies.sa/terminology/CodeSystem/ksa-message-events",
					"code": "eligibility-request"
				},
				"destination": [
					{
						"endpoint": "http://sni.com.sa/fhir",
						"receiver": {
							"type": "Organization",
							"identifier": {
								"system": "http://nphies.sa/license/payer-license",
								"value": "N-I-00001"
							}
						}
					}
				],
				"sender": {
					"type": "Organization",
					"identifier": {
						"system": "http://nphies.sa/license/provider-license",
						"value": "N-F-00001"
					}
				},
				"source": {
					"endpoint": "http://sgh.com.sa"
				},
				"focus": [
					{
						"reference": "http://sgh.com.sa/CoverageEligibilityRequest/63426"
					}
				]
			}
		},
		{
			"fullUrl": "http://sgh.com.sa/CoverageEligibilityRequest/63426",
			"resource": {
				"resourceType": "CoverageEligibilityRequest",
				"id": "63426",
				"meta": {
					"profile": [
						"http://nphies.sa/fhir/ksa/nphies-fs/StructureDefinition/eligibility-request|1.0.0"
					]
				},
				"identifier": [
					{
						"system": "http://sgh.com.sa/identifier/CoverageEligibilityRequest",
						"value": "163426"
					}
				],
				"status": "active",
				"priority": {
					"coding": [
						{
							"system": "http://terminology.hl7.org/CodeSystem/processpriority",
							"code": "normal"
						}
					]
				},
				"purpose": [
					"benefits",
					"validation"
				],
				"patient": {
					"reference": "http://sgh.com.sa/Patient/123456788"
				},
				"servicedPeriod": {
					"start": "2021-07-15",
					"end": "2021-07-16"
				},
				"created": "2021-07-15",
				"provider": {
					"reference": "http://sgh.com.sa/Organization/b1b3432921324f97af3be9fd0b1a14ae"
				},
				"insurer": {
					"reference": "http://sni.com.sa/fhir/Organization/bff3aa1fbd3648619ac082357bf135db"
				},
				"facility": {
					"reference": "http://sgh.com.sa/Location/2be1133308ed422a9923931c5a475f63"
				},
				"insurance": [
					{
						"coverage": {
							"reference": "http://sni.com.sa/fhir/Coverage/1333"
						}
					}
				]
			}
		},
		{
			"fullUrl": "http://sni.com.sa/fhir/Coverage/1333",
			"resource": {
				"resourceType": "Coverage",
				"id": "1333",
				"meta": {
					"profile": [
						"http://nphies.sa/fhir/ksa/nphies-fs/StructureDefinition/coverage|1.0.0"
					]
				},
				"identifier": [
					{
						"system": "http://sni.com.sa/fhir/memberid",
						"value": "10000001"
					}
				],
				"status": "active",
				"type": {
					"coding": [
						{
							"system": "http://nphies.sa/terminology/CodeSystem/coverage-type",
							"code": "EHCPOL",
							"display": "extended healthcare"
						}
					]
				},
				"subscriber": {
					"reference": "http://sgh.com.sa/Patient/123456788"
				},
				"subscriberId": "10000001",
				"beneficiary": {
					"reference": "http://sgh.com.sa/Patient/123456788"
				},
				"dependent": "Ahmad Khaled Abbas",
				"relationship": {
					"coding": [
						{
							"system": "http://terminology.hl7.org/CodeSystem/subscriber-relationship",
							"code": "self",
							"display": "Self"
						}
					]
				},
				"payor": [
					{
						"reference": "http://sni.com.sa/fhir/Organization/bff3aa1fbd3648619ac082357bf135db"
					}
				],
				"class": [
					{
						"type": {
							"coding": [
								{
									"system": "http://terminology.hl7.org/CodeSystem/coverage-class",
									"code": "group"
								}
							]
						},
						"value": "CB135",
						"name": "Insurance Group A"
					}
				],
				"network": "Golden C"	
			}
		},
		{
			"fullUrl": "http://sgh.com.sa/Organization/b1b3432921324f97af3be9fd0b1a14ae",
			"resource": {
				"resourceType": "Organization",
				"id": "b1b3432921324f97af3be9fd0b1a14ae",
				"meta": {
					"profile": [
						"http://nphies.sa/fhir/ksa/nphies-fs/StructureDefinition/provider-organization|1.0.0"
					]
				},
				"identifier": [
					{
				
						"system": "http://nphies.sa/license/provider-license",
						"value": "N-F-00001"
					}
				],
				"active": true,
				"type": [
					{
						"coding": [
							{
								"system": "http://nphies.sa/terminology/CodeSystem/organization-type",
								"code": "prov"
							}
						]
					}
				],
				"name": "Saudi General Hospital"
			}
		},
		{
			"fullUrl": "http://sgh.com.sa/Patient/123456788",
			"resource": {
				"resourceType": "Patient",
				"id": "123456788",
				"meta": {
					"profile": [
						"http://nphies.sa/fhir/ksa/nphies-fs/StructureDefinition/patient|1.0.0"
					]
				},
				"identifier": [
					{
						"type": {
							"coding": [
								{
									"system": "http://terminology.hl7.org/CodeSystem/v2-0203",
									"code": "VS",
									"display": "VISA"
								}
							]
						},
						"system": "http://nphies.sa/identifier/visa",
						"value": "5555346"
					}
				],
				"active": true,
				"name": [
					{
						"use": "official",
						"text": "Zahi Fathi abdullah Tareeq",
						"family": "Tareeq",
						"given": [
							"Zahi",
							"Fathi",
							"abdullah"
						]
					}
				],
				"telecom": [
					{
						"system": "phone",
						"value": "00966512345691"
					}
				],
				"gender": "male",
				"_gender": {
					"extension": [
						{
							"url": "http://nphies.sa/fhir/ksa/nphies-fs/StructureDefinition/extension-ksa-administrative-gender",
							"valueCodeableConcept": {
								"coding": [
									{
										"system": "http://nphies.sa/terminology/CodeSystem/ksa-administrative-gender",
										"code": "male",
										"display": "Male"
									}
								]
							}
						}
					]
				},
				"birthDate": "1988-10-13"
			}
		},
		{
			"fullUrl": "http://sni.com.sa/fhir/Organization/bff3aa1fbd3648619ac082357bf135db",
			"resource": {
				"resourceType": "Organization",
				"id": "bff3aa1fbd3648619ac082357bf135db",
				"meta": {
					"profile": [
						"http://nphies.sa/fhir/ksa/nphies-fs/StructureDefinition/insurer-organization|1.0.0"
					]
				},
				"identifier": [
					{
						"system": "http://nphies.sa/license/payer-license",
						"value": "N-I-00001"
					}
				],
				"active": true,
				"type": [
					{
						"coding": [
							{
								"system": "http://nphies.sa/terminology/CodeSystem/organization-type",
								"code": "ins"
							}
						]
					}
				],
				"name": "Saudi National Insurance"
			}
		},
		{
			"fullUrl": "http://sgh.com.sa/Location/2be1133308ed422a9923931c5a475f63",
			"resource": {
				"resourceType": "Location",
				"id": "2be1133308ed422a9923931c5a475f63",
				"meta": {
					"profile": [
						"http://nphies.sa/fhir/ksa/nphies-fs/StructureDefinition/location|1.0.0"
					]
				},
				"identifier": [
					{
						"system": "http://nphies.sa/license/location-license",
						"value": "DERM"
					}
				],
				"status": "active",
				"name": "dermatology Dr clinic",
				"type": [
					{
						"coding": [
							{
								"system": "http://terminology.hl7.org/CodeSystem/v3-RoleCode",
								"code": "DERM"
							}
						]
					}
				],
				"managingOrganization": {
					"reference": "http://sgh.com.sa/Organization/b1b3432921324f97af3be9fd0b1a14ae"
				}
			}
		}
	]
}