{
	"resourceType": "Bundle",
	"id": "020575a4-15c5-4cf0-baca-486df5aa85b6",
	"meta": {
		"profile": [
			"http://nphies.sa/fhir/ksa/nphies-fs/StructureDefinition/bundle|1.0.0"
		]
	},
	"type": "message",
	"timestamp": "2021-03-28",
	"entry": [
		{
			"fullUrl": "urn:uuid:80651f0c-7287-429e-99a0-3c4ab9b0df05",
			"resource": {
				"resourceType": "MessageHeader",
				"id": "80651f0c-7287-429e-99a0-3c4ab9b0df05",
				"meta": {
					"profile": [
						"http://nphies.sa/fhir/ksa/nphies-fs/StructureDefinition/message-header|1.0.0"
					]
				},
				"eventCoding": {
					"system": "http://nphies.sa/terminology/CodeSystem/ksa-message-events",
					"code": "communication-request"
				},
				"destination": [
					{
						"endpoint": "http://nphies.sa/license/payer-license/TMB-INS",
						"receiver": {
							"type": "Organization",
							"identifier": {
								"system": "http://nphies.sa/license/provider-license",
								"value": "PR-FHIR"
							}
						}
					}
				],
				"sender": {
					"type": "Organization",
					"identifier": {
						"system": "http://nphies.sa/license/payer-license",
						"value": "TMB-INS"
					}
				},
				"source": {
					"endpoint": "http://nphies.sa/license/provider-license/PR-FHIR"
				},
				"focus": [
					{
						"reference": "http://tmb-ins.com.sa/CommunicationRequest/268507"
					}
				]
			}
		},
		{
			"fullUrl": "http://tmb-ins.com.sa/CommunicationRequest/268507",
			"resource": {
				"resourceType": "CommunicationRequest",
				"id": "268507",
				"meta": {
					"profile": [
						"http://nphies.sa/fhir/ksa/nphies-fs/StructureDefinition/communication-request|1.0.0"
					]
				},
				"identifier": [
					{
						"system": "http://tmb-ins.com.sa/CommunicationRequest",
						"value": "268507"
					}
				],
				"status": "active",
				"category": [
					{
						"coding": [
							{
								"system": "http://terminology.hl7.org/CodeSystem/communication-category",
								"code": "instruction"
							}
						]
					}
				],
				"priority": "stat",
				"subject": {
					"reference": "Patient/3"
				},
				"about": [
					{
						"identifier": {
							"system": "http://happyvalley.com/claim",
							"value": "735215"
						},
						"type": "Claim"
					}
				],
				"payload": [
					{
						"contentString": "Please provide the vision prescription"
					}
				],
				"recipient": [
					{
						"reference": "Organization/10"
					}
				],
				"sender": {
					"reference": "Organization/11"
				},
				"reasonCode": [
					{
						"coding": [
							{
								"system": "http://nphies.sa/terminology/CodeSystem/communication-reason",
								"code": "Info-Correct"
							}
						]
					}
				]
			}
		},
		{
			"fullUrl": "http://tmb-ins.com.sa/Patient/3",
			"resource": {
				"resourceType": "Patient",
				"id": "3",
				"meta": {
					"profile": [
						"http://nphies.sa/fhir/ksa/nphies-fs/StructureDefinition/patient|1.0.0"
					]
				},
				"identifier": [
					{
						"type": {
							"coding": [
								{
									"system": "http://terminology.hl7.org/CodeSystem/v2-0203",
									"code": "PRC"
								}
							]
						},
						"system": "http://moi.gov.sa/id/iqama",
						"value": "00000000003"
					}
				],
				"active": true,
				"name": [
					{
						"text": "Muhammad Ali Abbas",
						"family": "Abbas",
						"given": [
							"Muhammad",
							"Ali"
						]
					}
				],
				"gender": "male",
				"_gender": {
					"extension": [
						{
							"url": "http://nphies.sa/fhir/ksa/nphies-fs/StructureDefinition/extension-ksa-administrative-gender",
							"valueCodeableConcept": {
								"coding": [
									{
										"system": "http://nphies.sa/terminology/CodeSystem/ksa-administrative-gender",
										"code": "male"
									}
								]
							}
						}
					]
				},
				"birthDate": "2010-08-21"
			}
		},
		{
			"fullUrl": "http://tmb-ins.com.sa/Organization/10",
			"resource": {
				"resourceType": "Organization",
				"id": "10",
				"meta": {
					"profile": [
						"http://nphies.sa/fhir/ksa/nphies-fs/StructureDefinition/provider-organization|1.0.0"
					]
				},
				"identifier": [
					{
						"use": "official",
						"system": "http://nphies.sa/license/provider-license",
						"value": "PR-FHIR"
					}
				],
				"active": true,
				"type": [
					{
						"coding": [
							{
								"system": "http://nphies.sa/terminology/CodeSystem/organization-type",
								"code": "ins"
							}
						]
					}
				]
			}
		},
		{
			"fullUrl": "http://tmb-ins.com.sa/Organization/11",
			"resource": {
				"resourceType": "Organization",
				"id": "11",
				"meta": {
					"profile": [
						"http://nphies.sa/fhir/ksa/nphies-fs/StructureDefinition/insurer-organization|1.0.0"
					]
				},
				"identifier": [
					{
						"use": "official",
						"system": "http://nphies.sa/license/payer-license",
						"value": "TMB-INS"
					}
				],
				"active": true,
				"type": [
					{
						"coding": [
							{
								"system": "http://nphies.sa/terminology/CodeSystem/organization-type",
								"code": "ins"
							}
						]
					}
				]
			}
		}
	]
}