{
	"resourceType": "Bundle",
	"id": "778d30d3-ee37-493f-971e-6c0e208c8d6c",
	"meta": {
		"profile": [
			"http://nphies.sa/fhir/ksa/nphies-fs/StructureDefinition/bundle|1.0.0"
		]
	},
	"type": "message",
	"timestamp": "2021-03-28",
	"entry": [
		{
			"fullUrl": "urn:uuid:7346ff17-7e3c-469c-afde-d93c859d2f6f",
			"resource": {
				"resourceType": "MessageHeader",
				"id": "7346ff17-7e3c-469c-afde-d93c859d2f6f",
				"meta": {
					"profile": [
						"http://nphies.sa/fhir/ksa/nphies-fs/StructureDefinition/message-header|1.0.0"
					]
				},
				"eventCoding": {
					"system": "http://nphies.sa/terminology/CodeSystem/ksa-message-events",
					"code": "payment-notice"
				},
				"destination": [
					{
						"endpoint": "http://nphies.sa/license/payer-license/INS-FHIR",
						"receiver": {
							"type": "Organization",
							"identifier": {
								"system": "http://nphies.sa/license/payer-license",
								"value": "INS-FHIR"
							}
						}
					}
				],
				"sender": {
					"type": "Organization",
					"identifier": {
						"system": "http://nphies.sa/license/provider-license",
						"value": "PR-FHIR"
					}
				},
				"source": {
					"endpoint": "http://nphies.sa/license/provider-license/PR-FHIR"
				},
				"focus": [
					{
						"reference": "http://pr-fhir.com.sa/PaymentNotice/651768"
					}
				]
			}
		},
		{
			"fullUrl": "http://pr-fhir.com.sa/PaymentNotice/651768",
			"resource": {
				"resourceType": "PaymentNotice",
				"id": "651768",
				"meta": {
					"profile": [
						"http://nphies.sa/fhir/ksa/nphies-fs/StructureDefinition/payment-notice|1.0.0"
					]
				},
				"identifier": [
					{
						"system": "http://pr-fhir.com.sa/PaymentNotice",
						"value": "651768"
					}
				],
				"status": "active",
				"created": "2021-03-28",
				"provider": {
					"reference": "Organization/10"
				},
				"payment": {
					"identifier": {
						"system": "http://tmb-ins.com.sa/PaymentReconciliation",
						"value": "53882"
					}
				},
				"paymentDate": "2020-09-01",
				"payee": {
					"reference": "Organization/11"
				},
				"recipient": {
					"reference": "Organization/8"
				},
				"amount": {
					"value": 4980,
					"currency": "SAR"
				},
				"paymentStatus": {
					"coding": [
						{
							"system": "http://terminology.hl7.org/CodeSystem/paymentstatus",
							"code": "cleared"
						}
					]
				}
			}
		},
		{
			"fullUrl": "http://pr-fhir.com.sa/Organization/10",
			"resource": {
				"resourceType": "Organization",
				"id": "10",
				"meta": {
					"profile": [
						"http://nphies.sa/fhir/ksa/nphies-fs/StructureDefinition/provider-organization|1.0.0"
					]
				},
				"identifier": [
					{
						"use": "official",
						"system": "http://nphies.sa/license/provider-license",
						"value": "PR-FHIR"
					}
				],
				"active": true,
				"type": [
					{
						"coding": [
							{
								"system": "http://nphies.sa/terminology/CodeSystem/organization-type",
								"code": "prov"
							}
						]
					}
				],
				"name": "PR-FHIR"
			}
		},
		{
			"fullUrl": "http://pr-fhir.com.sa/Organization/11",
			"resource": {
				"resourceType": "Organization",
				"id": "11",
				"meta": {
					"profile": [
						"http://nphies.sa/fhir/ksa/nphies-fs/StructureDefinition/insurer-organization|1.0.0"
					]
				},
				"identifier": [
					{
						"use": "official",
						"system": "http://nphies.sa/license/payer-license",
						"value": "INS-FHIR"
					}
				],
				"active": true,
				"type": [
					{
						"coding": [
							{
								"system": "http://nphies.sa/terminology/CodeSystem/organization-type",
								"code": "ins"
							}
						]
					}
				],
				"name": "INS-FHIR"
			}
		},
		{
			"fullUrl": "http://pr-fhir.com.sa/Organization/8",
			"resource": {
				"resourceType": "Organization",
				"id": "8",
				"meta": {
					"profile": [
						"http://hl7.org/fhir/StructureDefinition/Organization|4.0.1"
					]
				},
				"identifier": [
					{
						"use": "official",
						"system": "http://cchi.com.sa/organization",
						"value": "nphies"
					}
				],
				"active": true,
				"type": [
					{
						"coding": [
							{
								"system": "http://nphies.sa/terminology/CodeSystem/organization-type",
								"code": "pay"
							}
						]
					}
				],
				"name": "NPHIES"
			}
		}
	]
}