{
	"resourceType": "Bundle",
	"id": "bcdf9718-af5a-4d99-9e9c-dda8559b453e",
	"meta": {
		"profile": [
			"http://nphies.sa/fhir/ksa/nphies-fs/StructureDefinition/bundle|1.0.0"
		]
	},
	"type": "message",
	"timestamp": "2021-03-28",
	"entry": [
		{
			"fullUrl": "urn:uuid:0558bd3d-6721-489f-ba52-327940f2e513",
			"resource": {
				"resourceType": "MessageHeader",
				"id": "0558bd3d-6721-489f-ba52-327940f2e513",
				"meta": {
					"profile": [
						"http://nphies.sa/fhir/ksa/nphies-fs/StructureDefinition/message-header|1.0.0"
					]
				},
				"eventCoding": {
					"system": "http://nphies.sa/terminology/CodeSystem/ksa-message-events",
					"code": "claim-request"
				},
				"destination": [
					{
						"endpoint": "http://10.1.24.10/",
						"receiver": {
							"type": "Organization",
							"identifier": {
								"system": "http://nphies.sa/license/payer-license",
								"value": "TMB-INS"
							}
						}
					}
				],
				"sender": {
					"type": "Organization",
					"identifier": {
						"system": "http://nphies.sa/license/provider-license",
						"value": "PR-FHIR"
					}
				},
				"source": {
					"endpoint": "http://provider.com"
				},
				"focus": [
					{
						"reference": "http://provider.com/Claim/412049"
					}
				]
			}
		},
		{
			"fullUrl": "http://provider.com/Claim/412049",
			"resource": {
				"resourceType": "Claim",
				"id": "412049",
				"meta": {
					"profile": [
						"http://nphies.sa/fhir/ksa/nphies-fs/StructureDefinition/institutional-claim|1.0.0"
					]
				},
				"extension": [
					{
						"url": "http://nphies.sa/fhir/ksa/nphies-fs/StructureDefinition/extension-batch-identifier",
						"valueIdentifier": {
							"system": "http://pr-fhir.com.sa/batch",
							"value": "00001"
						}
					},
					{
						"url": "http://nphies.sa/fhir/ksa/nphies-fs/StructureDefinition/extension-batch-count",
						"valuePositiveInt": 1
					},
					{
						"url": "http://nphies.sa/fhir/ksa/nphies-fs/StructureDefinition/extension-batch-period",
						"valuePeriod": {
							"start": "2021-03-28",
							"end": "2021-03-28"
						}
					},
					{
						"url": "http://nphies.sa/fhir/ksa/nphies-fs/StructureDefinition/extension-encounter",
						"valueReference": {
							"reference": "http://pr-fhir.com.sa/Encounter/1"
						}
					}
				],
				"identifier": [
					{
						"system": "http://happyvalley.com/claim",
						"value": "412049"
					}
				],
				"status": "active",
				"type": {
					"coding": [
						{
							"system": "http://terminology.hl7.org/CodeSystem/claim-type",
							"code": "institutional"
						}
					]
				},
				"subType": {
					"coding": [
						{
							"system": "http://nphies.sa/terminology/CodeSystem/claim-subtype",
							"code": "emr"
						}
					]
				},
				"use": "claim",
				"patient": {
					"reference": "http://provider.com/Patient/433434"
				},
				"billablePeriod": {
					"start": "2021-03-28",
					"end": "2021-03-28"
				},
				"created": "2021-03-28",
				"insurer": {
					"reference": "http://provider.com/Organization/15a485e8b3a14457b5b009dc2be45097"
				},
				"provider": {
					"reference": "http://provider.com/Organization/0cc53891bee64a7b89f55fa545dce6b4"
				},
				"priority": {
					"coding": [
						{
							"system": "http://terminology.hl7.org/CodeSystem/processpriority",
							"code": "deferred"
						}
					]
				},
				"payee": {
					"type": {
						"coding": [
							{
								"system": "http://terminology.hl7.org/CodeSystem/payeetype",
								"code": "provider"
							}
						]
					}
				},
				"careTeam": [
					{
						"sequence": 1,
						"provider": {
							"reference": "http://provider.com/PractitionerRole/fe609ebc7e76415d8659d17fabf89916"
						},
						"role": {
							"coding": [
								{
									"system": "http://terminology.hl7.org/CodeSystem/claimcareteamrole",
									"code": "primary"
								}
							]
						},
						"qualification": 
                            {
                                "coding": [{
                                "system": "http://nphies.sa/terminology/CodeSystem/practice-codes",
                                "code": "01.00"}]
                            }
					}
				],
				"diagnosis": [
					{
						"sequence": 1,
						"diagnosisCodeableConcept": {
							"coding": [
								{
									"system": "http://hl7.org/fhir/sid/icd-10-am",
									"code": "A01.1"
								}
							]
						},
						"type": [
							{
								"coding": [
									{
										"system": "http://nphies.sa/terminology/CodeSystem/diagnosis-type",
										"code": "principal"
									}
								]
							}
						],
						"onAdmission": {
							"coding": [
								{
									"system": "http://nphies.sa/terminology/CodeSystem/diagnosis-on-admission",
									"code": "y"
								}
							]
						}
					}
				],
				"insurance": [
					{
						"sequence": 1,
						"focal": true,
						"coverage": {
							"reference": "http://provider.com/Coverage/41"
						}
					}
				],
				"item": [
					{
						"extension": [
							{
								"url": "http://nphies.sa/fhir/ksa/nphies-fs/StructureDefinition/extension-package",
								"valueBoolean": false
							},
							{
								"url": "http://nphies.sa/fhir/ksa/nphies-fs/StructureDefinition/extension-tax",
								"valueMoney": {
									"value": 10,
									"currency": "SAR"
								}
							},
							{
								"url": "http://nphies.sa/fhir/ksa/nphies-fs/StructureDefinition/extension-patient-share",
								"valueMoney": {
									"value": 0,
									"currency": "SAR"
								}
							}
						],
						"sequence": 1,
						"careTeamSequence": [
							1
						],
						"productOrService": {
							"coding": [
								{
									"system": "http://nphies.sa/terminology/CodeSystem/services",
									"code": "83600-00-90"
								}
							]
						},
						"servicedDate": "2021-03-28",
						"quantity": {
							"value": 1
						},
						"unitPrice": {
							"value": 6.5,
							"currency": "SAR"
						},
						"net": {
							"value": 6.5,
							"currency": "SAR"
						}
					}
				],
				"total": {
					"value": 6.5,
					"currency": "SAR"
				}
			}
		},
		{
			"fullUrl": "http://provider.com/Organization/0cc53891bee64a7b89f55fa545dce6b4",
			"resource": {
				"resourceType": "Organization",
				"id": "0cc53891bee64a7b89f55fa545dce6b4",
				"meta": {
					"profile": [
						"http://nphies.sa/fhir/ksa/nphies-fs/StructureDefinition/provider-organization|1.0.0"
					]
				},
				"identifier": [
					{
						"use": "official",
						"system": "http://nphies.sa/license/provider-license",
						"value": "PR-FHIR"
					}
				],
				"active": true,
				"type": [
					{
						"coding": [
							{
								"system": "http://nphies.sa/terminology/CodeSystem/organization-type",
								"code": "prov"
							}
						]
					}
				],
				"name": "Ibby Davydoch"
			}
		},
		{
			"fullUrl": "http://provider.com/Patient/433434",
			"resource": {
				"resourceType": "Patient",
				"id": "433434",
				"meta": {
					"profile": [
						"http://nphies.sa/fhir/ksa/nphies-fs/StructureDefinition/patient|1.0.0"
					]
				},
				"identifier": [
					{
						"type": {
							"coding": [
								{
									"system": "http://terminology.hl7.org/CodeSystem/v2-0203",
									"code": "VS"
								}
							]
						},
						"system": "http://nphies.sa/identifier/visa",
						"value": "1343434"
					}
				],
				"active": true,
				"name": [
					{
						"use": "official",
						"text": "testqa testqa testqa testqa",
						"family": "testqa",
						"given": [
							"testqa",
							"testqa",
							"testqa"
						]
					}
				],
				"telecom": [
					{
						"system": "phone",
						"value": "0919494984"
					}
				],
				"gender": "male",
				"_gender": {
					"extension": [
						{
							"url": "http://nphies.sa/fhir/ksa/nphies-fs/StructureDefinition/extension-ksa-administrative-gender",
							"valueCodeableConcept": {
								"coding": [
									{
										"system": "http://nphies.sa/terminology/CodeSystem/ksa-administrative-gender",
										"code": "male"
									}
								]
							}
						}
					]
				},
				"birthDate": "2018-10-12"
			}
		},
		{
			"fullUrl": "http://provider.com/Organization/15a485e8b3a14457b5b009dc2be45097",
			"resource": {
				"resourceType": "Organization",
				"id": "15a485e8b3a14457b5b009dc2be45097",
				"meta": {
					"profile": [
						"http://nphies.sa/fhir/ksa/nphies-fs/StructureDefinition/insurer-organization|1.0.0"
					]
				},
				"identifier": [
					{
						"use": "official",
						"system": "http://nphies.sa/license/payer-license",
						"value": "TMB-INS"
					}
				],
				"active": true,
				"type": [
					{
						"coding": [
							{
								"system": "http://nphies.sa/terminology/CodeSystem/organization-type",
								"code": "ins"
							}
						]
					}
				],
				"name": "Insurance Company 18"
			}
		},
		{
			"fullUrl": "http://provider.com/Coverage/41",
			"resource": {
				"resourceType": "Coverage",
				"id": "41",
				"meta": {
					"profile": [
						"http://nphies.sa/fhir/ksa/nphies-fs/StructureDefinition/coverage|1.0.0"
					]
				},
				"identifier": [
					{
						"system": "http://payer.com/memberid",
						"value": "43344334"
					}
				],
				"status": "active",
				"type": {
					"coding": [
						{
							"system": "http://nphies.sa/terminology/CodeSystem/coverage-type",
							"code": "EHCPOL"
						}
					]
				},
				"subscriber": {
					"reference": "http://provider.com/Patient/433434"
				},
				"subscriberId": "43344334",
				"beneficiary": {
					"reference": "http://provider.com/Patient/433434"
				},
				"relationship": {
					"coding": [
						{
							"system": "http://terminology.hl7.org/CodeSystem/subscriber-relationship",
							"code": "self"
						}
					]
				},
				"payor": [
					{
						"reference": "http://provider.com/Organization/15a485e8b3a14457b5b009dc2be45097"
					}
				]
			}
		},
		{
			"fullUrl": "http://provider.com/PractitionerRole/fe609ebc7e76415d8659d17fabf89916",
			"resource": {
				"resourceType": "PractitionerRole",
				"id": "fe609ebc7e76415d8659d17fabf89916",
				"meta": {
					"profile": [
						"http://nphies.sa/fhir/ksa/nphies-fs/StructureDefinition/practitioner-role|1.0.0"
					]
				},
				"identifier": [
					{
						"system": "http://nphies.sa/terminology/CodeSystem/practitioner-role",
						"value": "doctor"
					}
				],
				"active": true,
				"practitioner": {
					"type": "Practitioner",
					"identifier": {
						"system": "http://nphies.sa/licenses/practitioner",
						"value": "PRAC-06-362"
					}
				},
				"organization": {
					"reference": "http://provider.com/Organization/0cc53891bee64a7b89f55fa545dce6b4"
				},
				"code": [
					{
						"coding": [
							{
								"system": "http://nphies.sa/terminology/CodeSystem/practitioner-role",
								"code": "doctor"
							}
						]
					}
				],
				"specialty": [
					{
						"coding": [
							{
								"system": "http://nphies.sa/terminology/CodeSystem/practice-codes",
								"code": "08.22"
							}
						]
					}
				]
			}
		},
		{
			"fullUrl": "http://pr-fhir.com.sa/Encounter/1",
			"resource": {
				"resourceType": "Encounter",
				"id": "1",
				"meta": {
					"profile": [
						"http://nphies.sa/fhir/ksa/nphies-fs/StructureDefinition/encounter|1.0.0"
					]
				},
				"identifier": [
					{
						"system": "http://pr-fhir.com.sa/visitId",
						"value": "000001"
					}
				],
				"status": "finished",
				"class": {
					"system": "http://terminology.hl7.org/CodeSystem/v3-ActCode",
					"code": "AMB"
				},
				"serviceType": {
					"coding": [
						{
							"system": "http://nphies.sa/terminology/CodeSystem/service-type",
							"code": "237"
						}
					]
				},
				"priority": {
					"coding": [
						{
							"system": "http://terminology.hl7.org/CodeSystem/v3-ActPriority",
							"code": "EL"
						}
					]
				},
				"subject": {
					"reference": "http://provider.com/Patient/433434"
				},
				"period": {
					"start": "2021-03-28",
					"end": "2021-03-28"
				},
				"hospitalization": {
					"origin": {
						"reference": "http://provider.com/Organization/0cc53891bee64a7b89f55fa545dce6b4"
					},
					"admitSource": {
						"coding": [
							{
								"system": "http://nphies.sa/terminology/CodeSystem/encounter-admit-source",
								"code": "EOP"
							}
						]
					},
					"reAdmission": {
						"coding": [
							{
								"system": "http://terminology.hl7.org/CodeSystem/v2-0092",
								"code": "R"
							}
						]
					},
					"dischargeDisposition": {
						"coding": [
							{
								"system": "http://terminology.hl7.org/CodeSystem/discharge-disposition",
								"code": "home"
							}
						]
					}
				},
				"serviceProvider": {
					"reference": "http://provider.com/Organization/0cc53891bee64a7b89f55fa545dce6b4"
				}
			}
		}
	]
}